<?xml version="1.0" encoding="UTF-8"?>
<Bundle xmlns="http://hl7.org/fhir">
  <id value="eattest-ex03"/>
  <meta>
    <profile value="https://www.ehealth.fgov.be/standards/fhir/mycarenet/StructureDefinition/be-eattestdemand"/>
  </meta>
  <type value="message"/>
  <timestamp value="2015-07-14T11:15:33+02:00"/>
  <entry>
    <fullUrl value="urn:uuid:267b18ce-3d37-4581-9baa-6fada338038b"/>
    <resource>
      <MessageHeader>
        <id value="267b18ce-3d37-4581-9baa-6fada338038b"/>
        <meta>
          <profile value="https://www.ehealth.fgov.be/standards/fhir/mycarenet/StructureDefinition/be-messageheader"/>
        </meta>
        <eventCoding>
          <system value="https://www.ehealth.fgov.be/standards/fhir/mycarenet/CodeSystem/message-events"/>
          <code value="eattest-cancel"/>
        </eventCoding>
        <destination>
          <name value="MyCareNet"/>
          <endpoint value="MyCareNet"/>
        </destination>
        <sender>
        <!-- serviceProvider -->
          <reference value="PractitionerRole/PractitionerRole1"/>
        </sender>
        <source>
          <endpoint value="urn:uuid:62c7bfad-0cb3-4a39-9abb-3a62e06de834"/>
        </source>
        <focus>
          <reference value="Claim/Claim1"/>
        </focus>
      </MessageHeader>
    </resource>
  </entry>
  <entry>
    <fullUrl value="urn:uuid:62c7bfad-0cb3-4a39-9abb-3a62e06de834"/>
    <resource>
      <PractitionerRole>
        <id value="PractitionerRole1"/>
        <meta>
          <profile value="https://www.ehealth.fgov.be/standards/fhir/core/StructureDefinition/be-practitionerrole"/>
        </meta>
        <practitioner>
          <reference value="Practitioner/Practitioner1"/>
        </practitioner>
        <code>
          <coding>
            <system value="https://www.ehealth.fgov.be/standards/fhir/core/CodeSystem/cd-hcparty"/>
            <code value="persphysiotherapist"/>
          </coding>
        </code>
      </PractitionerRole>
    </resource>
  </entry>
  <entry>
    <fullUrl value="urn:uuid:03972cc4-d781-4285-8d79-0f05810e1931"/>
    <resource>
      <Practitioner>
        <id value="Practitioner1"/>
        <meta>
          <profile value="https://www.ehealth.fgov.be/standards/fhir/core/StructureDefinition/be-practitioner"/>
        </meta>
        <identifier>
        <!-- serviceProvider for the request cancel attest -->
          <system value="https://www.ehealth.fgov.be/standards/fhir/core/NamingSystem/nihdi"/>
          <value value="54263481527"/>
        </identifier>
        <name>
          <family value="Smith"/>
          <given value="John"/>
        </name>
      </Practitioner>
    </resource>
  </entry>
  <entry>
    <fullUrl value="urn:uuid:a52efcb6-1f81-4333-a115-d45bd3183686"/>
    <resource>
      <Patient>
        <id value="Patient1"/>
        <meta>
          <profile value="https://www.ehealth.fgov.be/standards/fhir/core/StructureDefinition/be-patient"/>
        </meta>
        <identifier>
        <!-- patient -->
          <system value="https://www.ehealth.fgov.be/standards/fhir/core/NamingSystem/ssin"/>
          <value value="73031805784"/>
        </identifier>
        <name>
          <family value="Dupont"/>
          <given value="Jean"/>
        </name>
        <gender value="male"/>
      </Patient>
    </resource>
  </entry>
  <entry>
    <fullUrl value="urn:uuid:e85173bc-6f0d-480b-a2cd-2b70d9ffff7a"/>
    <resource>
      <Claim>
        <id value="Claim1"/>
        <meta>
        <!-- new profile to create for the request -->
          <profile value="https://www.ehealth.fgov.be/standards/fhir/mycarenet/StructureDefinition/be-eattestclaim"/>
        </meta>
        <identifier>
        <!-- attestationID to cancel -->
		  <system value="https://www.mycarenet.be/eattest"/>
		  <value value="identification number of attestation"/>	
        </identifier>
        <status value="active"/>
        <type>
          <coding>
            <system value="http://terminology.hl7.org/CodeSystem/claim-type"/>
            <code value="professional"/>
          </coding>
        </type>
        <subType>
        <!-- attestationType -->
          <coding>
            <system value="https://www.ehealth.fgov.be/standards/fhir/mycarenet/CodeSystem/eattest-types"/>
            <code value="physiotherapy"/>
          </coding>
        </subType>
        <use value="claim"/>
        <patient>
          <reference value="Patient/Patient1"/>
        </patient>
        <created value="2015-07-14T11:15:30+02:00"/>
        <enterer>
          <reference value="PractitionerRole/PractitionerRole1"/>
        </enterer>
        <provider>
        <!-- provider for item -->
          <reference value="PractitionerRole/PractitionerRole1"/>
        </provider>
        <priority>
          <coding>
            <system value="http://terminology.hl7.org/CodeSystem/processpriority"/>
            <code value="stat"/>
          </coding>
        </priority>
        <supportingInfo>
        <!-- cancelReason for attest-->
          <sequence value="1"/>
          <category>
            <coding>
              <system value="http://terminology.hl7.org/CodeSystem/claiminformationcategory"/>
              <code value="info"/>
            </coding>
          </category>
          <code>
            <coding>
              <system value="https://www.ehealth.fgov.be/standards/fhir/mycarenet/CodeSystem/mycarenet-eattest-cancel-reason"/>
              <code value="A"/>
            </coding>
          </code>
        </supportingInfo>
        <insurance>
          <sequence value="1"/>
          <focal value="true"/>
          <coverage>
            <display value="use of mandatory insurance coverage, no further details provided here."/>
          </coverage>
        </insurance>
      </Claim>
    </resource>
  </entry>
</Bundle>