<?xml version="1.0" encoding="UTF-8"?>
<Bundle xmlns="http://hl7.org/fhir">
  <id value="ex01"/>
  <meta>
    <profile value="https://www.ehealth.fgov.be/standards/fhir/eattestation/StructureDefinition/be-eattestation-request"/>
  </meta>
  <type value="message"/>
  <timestamp value="2015-07-14T11:15:33+02:00"/>
  <entry>
    <fullUrl value="urn:uuid:267b18ce-3d37-4581-9baa-6fada338038b"/>
    <resource>
      <MessageHeader>
        <id value="267b18ce-3d37-4581-9baa-6fada338038b"/>
        <meta>
          <profile value="https://www.ehealth.fgov.be/standards/fhir/mycarenet/StructureDefinition/be-messageheader"/>
        </meta>
        <eventCoding>
          <system value="https://www.ehealth.fgov.be/standards/fhir/mycarenet/CodeSystem/message-events"/>
          <code value="eattest-create"/>
        </eventCoding>
        <destination>
          <name value="MyCareNet"/>
          <endpoint value="urn:be:fgov:kbo-bce:organization:cbe-number:0820563481"/>
        </destination>
        <sender>
        <!-- serviceProvider -->
          <reference value="PractitionerRole/62c7bfad-0cb3-4a39-9abb-3a62e06de834"/>
        </sender>
        <source>
          <endpoint value="urn:be:fgov:person:ssin:ehealth:1.0:physiotherapist:nihii11:54263481527"/>
        </source>
        <focus>
          <reference value="Claim/e85173bc-6f0d-480b-a2cd-2b70d9ffff7a"/>
        </focus>
      </MessageHeader>
    </resource>
  </entry>
  <entry>
    <fullUrl value="urn:uuid:62c7bfad-0cb3-4a39-9abb-3a62e06de834"/>
    <resource>
      <PractitionerRole>
        <id value="62c7bfad-0cb3-4a39-9abb-3a62e06de834"/>
        <meta>
          <profile value="https://www.ehealth.fgov.be/standards/fhir/core/StructureDefinition/be-practitionerrole"/>
        </meta>
        <practitioner>
          <reference value="Practitioner/03972cc4-d781-4285-8d79-0f05810e1931"/>
        </practitioner>
        <organization>
        <!-- collector (paymentreceivingparty) for attest --> 
		  <identifier>
			  <system value="https://www.ehealth.fgov.be/standards/fhir/core/NamingSystem/cbe"/>
			  <value value="0425.222.333"/>
		  </identifier>
        </organization>
        <code>
          <coding>
            <system value="https://www.ehealth.fgov.be/standards/fhir/core/CodeSystem/cd-hcparty"/>
            <code value="persphysiotherapist"/>
          </coding>
        </code>
      </PractitionerRole>
    </resource>
  </entry>
  <entry>
    <fullUrl value="urn:uuid:03972cc4-d781-4285-8d79-0f05810e1931"/>
    <resource>
      <Practitioner>
        <id value="03972cc4-d781-4285-8d79-0f05810e1931"/>
        <meta>
          <profile value="https://www.ehealth.fgov.be/standards/fhir/core/StructureDefinition/be-practitioner"/>
        </meta>
        <identifier>
        <!-- serviceProvider for attest (and in this case also the provider for item)-->
          <system value="https://www.ehealth.fgov.be/standards/fhir/core/NamingSystem/nihdi"/>
          <value value="54263481527"/>
        </identifier>
        <name>
          <family value="Smith"/>
          <given value="John"/>
        </name>
      </Practitioner>
    </resource>
  </entry>
  <entry>
    <fullUrl value="urn:uuid:a52efcb6-1f81-4333-a115-d45bd3183686"/>
    <resource>
      <Patient>
        <id value="a52efcb6-1f81-4333-a115-d45bd3183686"/>
        <meta>
          <profile value="https://www.ehealth.fgov.be/standards/fhir/core/StructureDefinition/be-patient"/>
        </meta>
        <identifier>
        <!-- patient -->
          <system value="https://www.ehealth.fgov.be/standards/fhir/core/NamingSystem/ssin"/>
          <value value="73031805784"/>
        </identifier>
        <name>
          <family value="Dupont"/>
          <given value="Jean"/>
        </name>
        <gender value="male"/>
      </Patient>
    </resource>
  </entry>
  <entry>
    <fullUrl value="urn:uuid:035e3de4-011f-48a4-92c9-15b2bbcec321"/>
    <resource>
      <PractitionerRole>
        <id value="035e3de4-011f-48a4-92c9-15b2bbcec321"/>
        <meta>
          <profile value="https://www.ehealth.fgov.be/standards/fhir/core/StructureDefinition/be-practitionerrole"/>
        </meta>
        <practitioner>
          <reference value="Practitioner/8fc72085-d349-4bd7-ba84-91a935a4e3c6"/>
        </practitioner>
        <code>
          <coding>
            <system value="https://www.ehealth.fgov.be/standards/fhir/core/CodeSystem/cd-hcparty"/>
            <code value="persphysician"/>
          </coding>
        </code>
      </PractitionerRole>
    </resource>
  </entry>
  <entry>
    <fullUrl value="urn:uuid:8fc72085-d349-4bd7-ba84-91a935a4e3c6"/>
    <resource>
      <Practitioner>
        <id value="8fc72085-d349-4bd7-ba84-91a935a4e3c6"/>
        <meta>
          <profile value="https://www.ehealth.fgov.be/standards/fhir/core/StructureDefinition/be-practitioner"/>
        </meta>
        <identifier>
        <!-- prescription - requestor - identifier -->
          <system value="https://www.ehealth.fgov.be/standards/fhir/core/NamingSystem/nihdi"/>
          <value value="19234011004"/>
        </identifier>
        <name>
          <family value="Nom du prescripteur"/>
          <given value="Prénom du prescripteur"/>
        </name>
      </Practitioner>
    </resource>
  </entry>
  <entry>
    <fullUrl value="urn:uuid:b3586cda-f1e5-4c58-a389-94249957d87a"/>
    <resource>
      <ServiceRequest>
        <id value="b3586cda-f1e5-4c58-a389-94249957d87a"/>
        <meta>
          <profile value="https://www.ehealth.fgov.be/standards/fhir/eattestation/StructureDefinition/be-eattestationservicerequest"/>
        </meta>
        <extension url="https://www.ehealth.fgov.be/standards/fhir/eattestation/StructureDefinition/be-ext-prescription-requester-standard">
            <!-- prescription requester standard for item -->
			<valueCodeableConcept>
				<coding>
					<system value="https://www.ehealth.fgov.be/standards/fhir/nihdi-terminology/CodeSystem/be-cs-requester-norm"/>
					<code value="1"/>
				</coding>
			</valueCodeableConcept>
		</extension>
        <status value="active"/>
        <intent value="order"/>
        <category>
          <coding>
            <system value="http://snomed.info/sct"/>
            <code value="91251008"/>
            <display value="Physical therapy procedure"/>
          </coding>
        </category>
        <code>
          <coding>
            <system value="http://snomed.info/sct"/>
            <code value="91251008"/>
            <display value="Physical therapy procedure"/>
          </coding>
        </code>
        <subject>
          <reference value="Patient/a52efcb6-1f81-4333-a115-d45bd3183686"/>
        </subject>
        <!-- prescription - authoredOn -->
        <authoredOn value="2015-07-14"/>
        <requester>
          <reference value="PractitionerRole/035e3de4-011f-48a4-92c9-15b2bbcec321"/>
        </requester>
      </ServiceRequest>
    </resource>
  </entry>
  <entry>
    <fullUrl value="urn:uuid:8fc72085-d349-4bd7-ba84-91a935a4e3c7"/>
    <resource>
      <Location>
        <id value="8fc72085-d349-4bd7-ba84-91a935a4e3c7"/>
        <managingOrganization>
          <identifier>
          <!-- location - identifier -->
            <system value="https://www.ehealth.fgov.be/standards/fhir/core/NamingSystem/nihdi"/>
            <value value="19234011004"/>
          </identifier>
        </managingOrganization>
      </Location>
    </resource>
  </entry>  
  <entry>
    <fullUrl value="urn:uuid:8fc72085-d349-4bd7-ba84-91a935a4e3c8"/>
    <resource>
      <Location>
        <id value="8fc72085-d349-4bd7-ba84-91a935a4e3c8"/>
        <type>
          <coding>
        <!-- location department -->
            <system value="https://www.ehealth.fgov.be/standards/fhir/nihdi-terminology/CodeSystem/be-cs-hospital-service-cd"/>
            <code value="130"/>
          </coding>
        </type>
        <partOf>
          <reference value="Location/8fc72085-d349-4bd7-ba84-91a935a4e3c7"/>
        </partOf>
      </Location>
    </resource>
  </entry>
  <entry>
    <fullUrl value="urn:uuid:e85173bc-6f0d-480b-a2cd-2b70d9ffff7a"/>
    <resource>
      <Claim>
        <id value="e85173bc-6f0d-480b-a2cd-2b70d9ffff7a"/>
        <meta>
        <!-- new profile to create for the request -->
          <profile value="https://www.ehealth.fgov.be/standards/fhir/eattestation/StructureDefinition/be-eattestation-claim"/>
        </meta>
        <extension url="https://www.ehealth.fgov.be/standards/fhir/eattestation/StructureDefinition/be-ext-eattestation-supplement">
        <!-- supplement for eattest -->
			<valueMoney>
			    <value value="60"/>
				<currency value="EUR"/>
			</valueMoney>
		</extension>
        <status value="active"/>
        <type>
          <coding>
            <system value="http://terminology.hl7.org/CodeSystem/claim-type"/>
            <code value="professional"/>
          </coding>
        </type>
        <subType>
        <!-- attestationType -->
          <coding>
            <system value="https://www.ehealth.fgov.be/standards/fhir/eattestation/CodeSystem/be-cs-eattestation-types"/>
            <code value="physiotherapy"/>
          </coding>
        </subType>
        <use value="claim"/>
        <patient>
          <reference value="Patient/a52efcb6-1f81-4333-a115-d45bd3183686"/>
        </patient>
        <created value="2015-07-14T11:15:30+02:00"/>
        <enterer>
          <reference value="PractitionerRole/62c7bfad-0cb3-4a39-9abb-3a62e06de834"/>
        </enterer>
        <provider>
        <!-- provider for item -->
          <reference value="PractitionerRole/62c7bfad-0cb3-4a39-9abb-3a62e06de834"/>
        </provider>
        <priority>
          <coding>
            <system value="http://terminology.hl7.org/CodeSystem/processpriority"/>
            <code value="stat"/>
          </coding>
        </priority>
        <payee>
          <type>
           <coding>
            <system value="http://terminology.hl7.org/CodeSystem/payeetype"/>
            <code value="subscriber"/>
           </coding> 
          </type>
          <party>
			<reference value="Patient/a52efcb6-1f81-4333-a115-d45bd3183686"/>  
          </party>		
        </payee>
        <careTeam>
        <!-- auxiliaryProvider: gmf manager -->
			<sequence value="1"/>
			<provider>
				<identifier>
				  <system value="https://www.ehealth.fgov.be/standards/fhir/core/NamingSystem/nihdi"/>
				  <value value="numéro inami du prestataire"/>
				</identifier>
			</provider>
			<role>
				<coding>
					<system value="http://terminology.hl7.org/CodeSystem/claimcareteamrole"/>
					<code value="other"/>
				</coding>
			</role>
			<qualification>
				<coding>
					<system value="https://www.ehealth.fgov.be/standards/fhir/core/CodeSystem/cd-hcparty"/>
					<code value="persphysician"/>
				</coding>			
			</qualification>
        </careTeam>
        <careTeam>
        <!-- AuxiliaryProvider: trainee -->
			<sequence value="2"/>
			<provider>
				<identifier>
				  <system value="https://www.ehealth.fgov.be/standards/fhir/core/NamingSystem/nihdi"/>
				  <value value="numéro inami du prestataire"/>
				</identifier>
			</provider>
			<role>
				<coding>
					<system value="http://terminology.hl7.org/CodeSystem/claimcareteamrole"/>
					<code value="assist"/>
				</coding>
			</role>
			<qualification>
			<!-- hcparty ? -->
				<coding>
					<system value="https://www.ehealth.fgov.be/standards/fhir/core/CodeSystem/cd-hcparty"/>
					<code value="persphysician"/>
				</coding>			
			</qualification>
        </careTeam>
        <careTeam>
        <!-- AuxiliaryProvider: oralHygienist -->
			<sequence value="3"/>
			<provider>
				<identifier>
				  <system value="https://www.ehealth.fgov.be/standards/fhir/core/NamingSystem/nihdi"/>
				  <value value="numéro inami du prestataire"/>
				</identifier>
			</provider>
			<role>
				<coding>
					<system value="http://terminology.hl7.org/CodeSystem/claimcareteamrole"/>
					<code value="assist"/>
				</coding>
			</role>
			<qualification>
				<coding>
					<system value="https://www.ehealth.fgov.be/standards/fhir/core/CodeSystem/cd-hcparty"/>
					<code value="persoraldentalhygienist"/>
				</coding>			
			</qualification>
        </careTeam>        
        <careTeam>
        <!-- service - Provider -->
			<sequence value="4"/>
			<provider>
				<identifier>
				  <system value="https://www.ehealth.fgov.be/standards/fhir/core/NamingSystem/nihdi"/>
				  <value value="numéro inami du prestataire"/>
				</identifier>
			</provider>
			<role>
				<coding>
					<system value="http://terminology.hl7.org/CodeSystem/claimcareteamrole"/>
					<code value="primary"/>
				</coding>
			</role>
			<qualification>
				<coding>
					<system value="https://www.ehealth.fgov.be/standards/fhir/core/CodeSystem/cd-hcparty"/>
					<code value="persphysiotherapist"/>
				</coding>			
			</qualification>
        </careTeam>        
        <supportingInfo>
        <!-- treatmentCauses for attest-->
          <sequence value="1"/>
          <category>
            <coding>
              <system value="http://terminology.hl7.org/CodeSystem/claiminformationcategory"/>
              <code value="info"/>
            </coding>
          </category>
          <code>
            <coding>
              <system value="https://www.ehealth.fgov.be/standards/fhir/nihdi-terminology/CodeSystem/be-cs-treatment-reason"/>
              <code value="0050"/>
            </coding>
          </code>
        </supportingInfo>
        <supportingInfo>
        <!-- standard (claim norm) for item -->
          <sequence value="2"/>
          <category>
            <coding>
              <system value="http://terminology.hl7.org/CodeSystem/claiminformationcategory"/>
              <code value="info"/>
            </coding>
          </category>
          <code>
            <coding>
              <system value="https://www.ehealth.fgov.be/standards/fhir/nihdi-terminology/CodeSystem/be-cs-claim-norm-code"/>
              <code value="1"/>
            </coding>
          </code>
        </supportingInfo>
        <supportingInfo>
        <!-- related (claim) for item -->
          <sequence value="3"/>
          <category>
            <coding>
              <system value="http://terminology.hl7.org/CodeSystem/claiminformationcategory"/>
              <code value="info"/>
            </coding>
          </category>
          <code>
            <coding>
              <system value="https://www.ehealth.fgov.be/standards/fhir/mycarenet/NamingSystem/be-ns-claim-related-claim"/>
              <code value="000000"/>
            </coding>
          </code>
        </supportingInfo>
        <supportingInfo>
        <!-- transplantation for item -->
          <sequence value="4"/>
          <category>
            <coding>
              <system value="http://terminology.hl7.org/CodeSystem/claiminformationcategory"/>
              <code value="info"/>
            </coding>
          </category>
          <code>
            <coding>
              <system value="https://www.ehealth.fgov.be/standards/fhir/nihdi-terminology/CodeSystem/be-cs-claim-transplantation-code"/>
              <code value="1"/>
            </coding>
          </code>
        </supportingInfo>
        <supportingInfo>
        <!-- identical (exemption) for item -->
          <sequence value="5"/>
          <category>
            <coding>
              <system value="http://terminology.hl7.org/CodeSystem/claiminformationcategory"/>
              <code value="info"/>
            </coding>
          </category>
          <code>
            <coding>
              <system value="https://www.ehealth.fgov.be/standards/fhir/nihdi-terminology/CodeSystem/be-cs-claim-exemption-code"/>
              <code value="01"/>
            </coding>
          </code>
        </supportingInfo>        
        <supportingInfo>
        <!-- prescription for item -->
          <sequence value="6"/>
          <category>
            <coding>
              <system value="http://terminology.hl7.org/CodeSystem/claiminformationcategory"/>
              <code value="info"/>
            </coding>
          </category>
          <valueReference>
            <reference value="ServiceRequest/b3586cda-f1e5-4c58-a389-94249957d87a"/>
          </valueReference>
        </supportingInfo>
        <insurance>
          <sequence value="1"/>
          <focal value="true"/>
          <coverage>
            <display value="use of mandatory insurance coverage, no further details provided here."/>
          </coverage>
        </insurance>
        <item>
          <extension url="https://www.ehealth.fgov.be/standards/fhir/eattestation/StructureDefinition/be-ext-eattestation-item-supplement">
            <!-- supplement for item -->
			<valueMoney>
			    <value value="60"/>
				<currency value="EUR"/>
			</valueMoney>
		  </extension>
		  <extension url="https://www.ehealth.fgov.be/standards/fhir/eattestation/StructureDefinition/be-ext-eattestation-item-preauthref">
            <!-- medicalAdvisorDecisionNr for item -->
			<valueString value="preauthref number"/>
		  </extension>
		  <extension url="https://www.ehealth.fgov.be/standards/fhir/mycarenet/StructureDefinition/be-ext-eattestation-item-patientidentitydocument">
            <!-- patientIdentityDocument for item -->
			<extension url="readingDate">
				<valueDate value="2015-07-14"/>
			</extension>
			<extension url="readingTime">
				<valueTime value="11:14:30"/>
			</extension>
			<extension url="entryType">
				<valueCodeableConcept>
				    <coding>
					  <system value="https://www.ehealth.fgov.be/standards/fhir/nihdi-terminology/CodeSystem/be-cs-id-doc-input-type"/>
					  <code value="4"/>
					</coding>
				</valueCodeableConcept>
			</extension>
			<extension url="reasonManual">
				<valueCodeableConcept>
					<coding>
					  <system value="https://www.ehealth.fgov.be/standards/fhir/nihdi-terminology/CodeSystem/be-cs-id-doc-manual-input-justification"/>
					  <code value="2"/>
					</coding>
				</valueCodeableConcept>				
			</extension>
			<extension url="medium">
				<valueCodeableConcept>
					<coding>
					  <system value="https://www.ehealth.fgov.be/standards/fhir/nihdi-terminology/CodeSystem/be-cs-id-doc-media-type"/>
					  <code value="1"/>
					</coding>
				</valueCodeableConcept>
			</extension>
			<extension url="stickerReason">
				<valueCodeableConcept>
					<coding>
					  <system value="https://www.ehealth.fgov.be/standards/fhir/nihdi-terminology/CodeSystem/be-cs-id-doc-vignette-use-justification"/>
					  <code value="1"/>
					</coding>
				</valueCodeableConcept>
			</extension>
			<extension url="serialNumber">
				<valueString value="actual cardnumber as string"/>
			</extension>
		  </extension>
          <sequence value="1"/>
          <careTeamSequence value="1"/>
          <careTeamSequence value="2"/>
          <careTeamSequence value="3"/>
          <careTeamSequence value="4"/>
          <informationSequence value="2"/>
          <informationSequence value="3"/>
          <informationSequence value="4"/>
          <informationSequence value="5"/>
          <informationSequence value="6"/>
          <productOrService>
          <!-- identifier for item -->
            <coding>
              <system value="https://www.ehealth.fgov.be/standards/fhir/core/NamingSystem/be-ns-nihdi-nomenclature"/>
              <code value="101032"/>
            </coding>
          </productOrService>
          <!-- date for item -->
          <servicedDate value="2020-01-14"/>
          <locationReference>
          <!-- location for item -->
			  <reference value="Location/8fc72085-d349-4bd7-ba84-91a935a4e3c7"/>
          </locationReference>
          <!-- count for item -->
          <quantity>
			  <value value="10"/>
		  </quantity>	  
          <unitPrice>
			  <value value="50"/>
			  <currency value="EUR"/>
          </unitPrice>
          <net>
          <!-- fee for item -->
			  <value value="500"/>
			  <currency value="EUR"/>
          </net>
          <bodySite>
          <!-- toothNumber for item -->
            <coding>
              <system value="http://snomed.info/sct"/>
              <code value="2400006"/> <!-- Mandibular left first premolar tooth -->
            </coding>
          </bodySite>
          <!-- laterality for item
          <bodySite>
			<extension url="https://www.ehealth.fgov.be/standards/fhir/core-clinical/StructureDefinition/be-ext-laterality">
              <valueCoding>
                <system value="http://snomed.info/sct"/>
                <code value="419161000"/>
              </valueCoding>
            </extension>
          </bodySite>
		  -->
        </item>
        <total>
        <!-- totalFee for the whole attest -->
     		<value value="500"/>
			<currency value="EUR"/>
        </total>
      </Claim>
    </resource>
  </entry>
</Bundle>