<?xml version="1.0" encoding="UTF-8"?>
<Bundle xmlns="http://hl7.org/fhir">
  <id value="ex15"/>
  <meta>
    <profile value="https://www.ehealth.fgov.be/standards/fhir/eattestation/StructureDefinition/be-eattestation-request"/>
  </meta>
  <type value="message"/>
  <timestamp value="2015-07-14T11:15:33+02:00"/>
  <entry>
    <fullUrl value="urn:uuid:267b18ce-3d37-4581-9baa-6fada338038b"/>
    <resource>
      <MessageHeader>
        <id value="267b18ce-3d37-4581-9baa-6fada338038b"/>
        <meta>
          <profile value="https://www.ehealth.fgov.be/standards/fhir/mycarenet/StructureDefinition/be-messageheader"/>
        </meta>
        <eventCoding>
          <system value="https://www.ehealth.fgov.be/standards/fhir/mycarenet/CodeSystem/message-events"/>
          <code value="eattest-cancel"/>
        </eventCoding>
        <destination>
          <name value="MyCareNet"/>
          <endpoint value="urn:be:fgov:kbo-bce:organization:cbe-number:0820563481"/>
        </destination>
        <sender>
        <!-- serviceProvider -->
          <reference value="Organization/e2c6f73a-74d8-40f2-af0b-a61ad20c53d4"/>
        </sender>
        <source>
          <endpoint value="urn:be:fgov:ehealth:1.0:hospital:nihii-number:71040622000"/>
        </source>
        <focus>
          <reference value="Claim/e85173bc-6f0d-480b-a2cd-2b70d9ffff7a"/>
        </focus>
      </MessageHeader>
    </resource>
  </entry>
  <entry>
    <fullUrl value="urn:uuid:e2c6f73a-74d8-40f2-af0b-a61ad20c53d4"/>
    <resource>
      <Organization>
        <id value="e2c6f73a-74d8-40f2-af0b-a61ad20c53d4"/>
        <meta>
          <profile value="https://www.ehealth.fgov.be/standards/fhir/core/StructureDefinition/be-organization"/>
        </meta>
        <identifier>
          <system value="https://www.ehealth.fgov.be/standards/fhir/core/NamingSystem/nihdi"/>
          <value value="71040622000"/>
        </identifier>
        <type>
          <coding>
            <system value="https://www.ehealth.fgov.be/standards/fhir/core/CodeSystem/cd-hcparty"/>
            <code value="orghospital"/>
          </coding>
        </type>
      </Organization>
    </resource>
  </entry>
  <entry>
    <fullUrl value="urn:uuid:62c7bfad-0cb3-4a39-9abb-3a62e06de834"/>
    <resource>
      <PractitionerRole>
        <id value="62c7bfad-0cb3-4a39-9abb-3a62e06de834"/>
        <meta>
          <profile value="https://www.ehealth.fgov.be/standards/fhir/core/StructureDefinition/be-practitionerrole"/>
        </meta>
        <practitioner>
          <reference value="Practitioner/03972cc4-d781-4285-8d79-0f05810e1931"/>
        </practitioner>
        <code>
          <coding>
            <system value="https://www.ehealth.fgov.be/standards/fhir/core/CodeSystem/cd-hcparty"/>
            <code value="persphysician"/>
          </coding>
        </code>
      </PractitionerRole>
    </resource>
  </entry>
  <entry>
    <fullUrl value="urn:uuid:03972cc4-d781-4285-8d79-0f05810e1931"/>
    <resource>
      <Practitioner>
        <id value="03972cc4-d781-4285-8d79-0f05810e1931"/>
        <meta>
          <profile value="https://www.ehealth.fgov.be/standards/fhir/core/StructureDefinition/be-practitioner"/>
        </meta>
        <identifier>
        <!-- serviceProvider for the request cancel attest -->
          <system value="https://www.ehealth.fgov.be/standards/fhir/core/NamingSystem/nihdi"/>
          <value value="12898723580"/>
        </identifier>
        <name>
          <family value="Smith"/>
          <given value="John"/>
        </name>
      </Practitioner>
    </resource>
  </entry>
  <entry>
    <fullUrl value="urn:uuid:a52efcb6-1f81-4333-a115-d45bd3183686"/>
    <resource>
      <Patient>
        <id value="a52efcb6-1f81-4333-a115-d45bd3183686"/>
        <meta>
          <profile value="https://www.ehealth.fgov.be/standards/fhir/core/StructureDefinition/be-patient"/>
        </meta>
        <identifier>
        <!-- patient -->
          <system value="https://www.ehealth.fgov.be/standards/fhir/core/NamingSystem/ssin"/>
          <value value="73031805784"/>
        </identifier>
        <name>
          <family value="Dupont"/>
          <given value="Jean"/>
        </name>
        <gender value="male"/>
      </Patient>
    </resource>
  </entry>
  <entry>
    <fullUrl value="urn:uuid:e85173bc-6f0d-480b-a2cd-2b70d9ffff7a"/>
    <resource>
      <Claim>
        <id value="e85173bc-6f0d-480b-a2cd-2b70d9ffff7a"/>
        <meta>
        <!-- new profile to cancel an eattest -->
          <profile value="https://www.ehealth.fgov.be/standards/fhir/eattestation/StructureDefinition/be-eattestation-claim"/>
        </meta>
        <identifier>
        <!-- attestationID to cancel -->
		  <system value="https://www.mycarenet.be/eattest"/>
		  <value value="300-1-170127-0000005-32"/>	
        </identifier>
        <status value="active"/>
        <type>
          <coding>
            <system value="http://terminology.hl7.org/CodeSystem/claim-type"/>
            <code value="professional"/>
          </coding>
        </type>
        <subType>
        <!-- attestationType -->
          <coding>
            <system value="https://www.ehealth.fgov.be/standards/fhir/eattestation/CodeSystem/be-cs-eattestation-types"/>
            <code value="specializedmedicine"/>
          </coding>
        </subType>
        <use value="claim"/>
        <patient>
          <reference value="Patient/a52efcb6-1f81-4333-a115-d45bd3183686"/>
        </patient>
        <created value="2015-07-14T11:15:30+02:00"/>
        <enterer>
          <reference value="PractitionerRole/62c7bfad-0cb3-4a39-9abb-3a62e06de834"/>
        </enterer>
        <provider>
        <!-- provider for item -->
          <reference value="PractitionerRole/62c7bfad-0cb3-4a39-9abb-3a62e06de834"/>
        </provider>
        <priority>
          <coding>
            <system value="http://terminology.hl7.org/CodeSystem/processpriority"/>
            <code value="stat"/>
          </coding>
        </priority>
        <supportingInfo>
        <!-- cancelReason for attest-->
          <sequence value="1"/>
          <category>
            <coding>
              <system value="http://terminology.hl7.org/CodeSystem/claiminformationcategory"/>
              <code value="info"/>
            </coding>
          </category>
          <code>
            <coding>
              <system value="https://www.ehealth.fgov.be/standards/fhir/eattestation/CodeSystem/be-cs-eattestation-cancel-reason"/>
              <code value="C"/>
            </coding>
          </code>
        </supportingInfo>
        <insurance>
          <sequence value="1"/>
          <focal value="true"/>
          <coverage>
            <display value="use of mandatory insurance coverage, no further details provided here."/>
          </coverage>
        </insurance>
      </Claim>
    </resource>
  </entry>
</Bundle>