<?xml version="1.0" encoding="UTF-8"?>

<Bundle xmlns="http://hl7.org/fhir">
  <id value="ex16"/>
  <meta>
    <profile value="https://www.ehealth.fgov.be/standards/fhir/eattestation/StructureDefinition/be-eattestation-response"/>
  </meta>
  <type value="message"/>
  <timestamp value="2015-07-14T11:15:37+02:00"/>
  <entry>
    <fullUrl value="urn:uuid:ce2e2084-3f5c-4f52-8551-8088bb6d3491"/>
    <resource>
      <MessageHeader>
        <id value="667b18ce-3d37-4581-9baa-6fada338038c"/>
        <meta>
          <profile value="https://www.ehealth.fgov.be/standards/fhir/mycarenet/StructureDefinition/be-messageheader"/>
        </meta>
        <eventCoding>
          <system value="https://www.ehealth.fgov.be/standards/fhir/mycarenet/CodeSystem/message-events"/>
          <code value="eattestresponse-cancel"/>
        </eventCoding>
        <destination>
          <endpoint value="urn:be:fgov:ehealth:1.0:hospital:nihii-number:71040622000"/>
          <receiver>
            <reference value="urn:uuid:e2c6f73a-74d8-40f2-af0b-a61ad20c53d4"/>
          </receiver>
        </destination>
        <sender>
          <reference value="urn:uuid:cfabb40d-a53f-4c56-bc19-725ea669b358"/>
        </sender>
        <source>
          <endpoint value="urn:be:fgov:kbo-bce:organization:cbe-number:0411724220"/>
        </source>
        <response>
          <identifier value="267b18ce-3d37-4581-9baa-6fada338038b"/>
          <code value="ok"/>
        </response>
        <focus>
          <reference value="urn:uuid:0a0d60df-0340-45a6-a493-a5d67f74d693"/>
        </focus>
      </MessageHeader>
    </resource>
  </entry>
  <entry>
    <fullUrl value="urn:uuid:e2c6f73a-74d8-40f2-af0b-a61ad20c53d4"/>
    <resource>
      <Organization>
        <id value="e2c6f73a-74d8-40f2-af0b-a61ad20c53d4"/>
        <meta>
          <profile value="https://www.ehealth.fgov.be/standards/fhir/core/StructureDefinition/be-organization"/>
        </meta>
        <identifier>
          <system value="https://www.ehealth.fgov.be/standards/fhir/core/NamingSystem/nihdi"/>
          <value value="71040622000"/>
        </identifier>
        <type>
          <coding>
            <system value="https://www.ehealth.fgov.be/standards/fhir/core/CodeSystem/cd-hcparty"/>
            <code value="orghospital"/>
          </coding>
        </type>
      </Organization>
    </resource>
  </entry>
  <entry>
    <fullUrl value="urn:uuid:cfabb40d-a53f-4c56-bc19-725ea669b358"/>
    <resource>
      <Organization>
        <id value="cfabb40d-a53f-4c56-bc19-725ea669b358"/>
        <meta>
          <profile value="https://www.ehealth.fgov.be/standards/fhir/core/StructureDefinition/be-organization"/>
        </meta>
        <identifier>
          <system value="https://www.ehealth.fgov.be/standards/fhir/core/NamingSystem/insurancenumber"/>
          <value value="300"/>
        </identifier>
        <name value="Union Nationale des Mutualités Socialistes - Nationaal Verbond van de Socialistische Mutualiteiten"/>
      </Organization>
    </resource>
  </entry>
  <entry>
    <fullUrl value="urn:uuid:a52efcb6-1f81-4333-a115-d45bd3183686"/>
    <resource>
      <Patient>
        <id value="a52efcb6-1f81-4333-a115-d45bd3183686"/>
        <meta>
          <profile value="https://www.ehealth.fgov.be/standards/fhir/core/StructureDefinition/be-patient"/>
        </meta>
        <identifier>
          <system value="https://www.ehealth.fgov.be/standards/fhir/core/NamingSystem/ssin"/>
          <value value="73031805784"/>
        </identifier>
        <name>
          <family value="Dupont"/>
          <given value="Jean"/>
        </name>
        <gender value="male"/>
      </Patient>
    </resource>
  </entry>
  <entry>
    <fullUrl value="urn:uuid:0a0d60df-0340-45a6-a493-a5d67f74d693"/>
    <resource>
      <ClaimResponse>
        <id value="0a0d60df-0340-45a6-a493-a5d67f74d693"/>
        <meta>
          <profile value="https://www.ehealth.fgov.be/standards/fhir/eattestation/StructureDefinition/be-eattestation-claimresponse"/>
        </meta>
        <identifier>
        <!-- attestationID cancelled-->
		  <system value="https://www.mycarenet.be/eattest"/>
		  <value value="300-1-170127-0000005-32"/>	
        </identifier>
        <status value="cancelled"/>
        <type>
          <coding>
            <system value="http://terminology.hl7.org/CodeSystem/claim-type"/>
            <code value="professional"/>
          </coding>
        </type>
        <subType>
        <!-- attestationType -->
          <coding>
            <system value="https://www.ehealth.fgov.be/standards/fhir/eattestation/CodeSystem/be-cs-eattestation-types"/>
            <code value="physiotherapy"/>
          </coding>
        </subType>
        <use value="claim"/>
        <patient>
          <reference value="urn:uuid:a52efcb6-1f81-4333-a115-d45bd3183686"/>
        </patient>
        <created value="2015-07-14T11:15:30+02:00"/>
        <insurer>
          <reference value="urn:uuid:cfabb40d-a53f-4c56-bc19-725ea669b358"/>
        </insurer>
        <outcome value="complete"/>
      </ClaimResponse>
    </resource>
  </entry>
</Bundle>