<?xml version="1.0" encoding="UTF-8"?>

<Bundle xmlns="http://hl7.org/fhir">
  <id value="ex14"/>
  <meta>
    <profile value="https://www.ehealth.fgov.be/standards/fhir/eattestation/StructureDefinition/be-eattestation-response"/>
  </meta>
  <type value="message"/>
  <timestamp value="2015-07-14T11:15:37+02:00"/>
  <entry>
    <fullUrl value="urn:uuid:ce2e2084-3f5c-4f52-8551-8088bb6d3491"/>
    <resource>
      <MessageHeader>
        <id value="667b18ce-3d37-4581-9baa-6fada338038c"/>
        <meta>
          <profile value="https://www.ehealth.fgov.be/standards/fhir/mycarenet/StructureDefinition/be-messageheader"/>
        </meta>
        <eventCoding>
          <system value="https://www.ehealth.fgov.be/standards/fhir/mycarenet/CodeSystem/message-events"/>
          <code value="eattestresponse-cancel"/>
        </eventCoding>
        <destination>
          <endpoint value="urn:uuid:62c7bfad-0cb3-4a39-9abb-3a62e06de834"/>
          <receiver>
            <reference value="PractitionerRole/62c7bfad-0cb3-4a39-9abb-3a62e06de834"/>
          </receiver>
        </destination>
        <sender>
          <reference value="Organization/cfabb40d-a53f-4c56-bc19-725ea669b358"/>
        </sender>
        <source>
          <endpoint value="urn:uuid:cfabb40d-a53f-4c56-bc19-725ea669b358"/>
        </source>
        <response>
          <identifier value="267b18ce-3d37-4581-9baa-6fada338038b"/>
          <code value="ok"/>
        </response>
        <focus>
          <reference value="ClaimResponse/0a0d60df-0340-45a6-a493-a5d67f74d693"/>
        </focus>
      </MessageHeader>
    </resource>
  </entry>
  <entry>
    <fullUrl value="urn:uuid:62c7bfad-0cb3-4a39-9abb-3a62e06de834"/>
    <resource>
      <PractitionerRole>
        <id value="62c7bfad-0cb3-4a39-9abb-3a62e06de834"/>
        <meta>
          <profile value="https://www.ehealth.fgov.be/standards/fhir/core/StructureDefinition/be-practitionerrole"/>
        </meta>
        <practitioner>
          <reference value="Practitioner/03972cc4-d781-4285-8d79-0f05810e1931"/>
        </practitioner>
        <code>
          <coding>
            <system value="https://www.ehealth.fgov.be/standards/fhir/core/CodeSystem/cd-hcparty"/>
            <code value="persphysician"/>
          </coding>
        </code>
      </PractitionerRole>
    </resource>
  </entry>
  <entry>
    <fullUrl value="urn:uuid:03972cc4-d781-4285-8d79-0f05810e1931"/>
    <resource>
      <Practitioner>
        <id value="03972cc4-d781-4285-8d79-0f05810e1931"/>
        <meta>
          <profile value="https://www.ehealth.fgov.be/standards/fhir/core/StructureDefinition/be-practitioner"/>
        </meta>
        <identifier>
        <!-- serviceProvider for the request cancel attest -->
          <system value="https://www.ehealth.fgov.be/standards/fhir/core/NamingSystem/nihdi"/>
          <value value="11530231003"/>
        </identifier>
        <name>
          <family value="Durand"/>
          <given value="Pierre"/>
        </name>
      </Practitioner>
    </resource>
  </entry>
  <entry>
    <fullUrl value="urn:uuid:cfabb40d-a53f-4c56-bc19-725ea669b358"/>
    <resource>
      <Organization>
        <id value="cfabb40d-a53f-4c56-bc19-725ea669b358"/>
        <meta>
          <profile value="https://www.ehealth.fgov.be/standards/fhir/core/StructureDefinition/be-organization"/>
        </meta>
        <identifier>
          <system value="https://www.ehealth.fgov.be/standards/fhir/core/NamingSystem/insurancenumber"/>
          <value value="300"/>
        </identifier>
        <name value="Union Nationale des Mutualités Socialistes - Nationaal Verbond van de Socialistische Mutualiteiten"/>
      </Organization>
    </resource>
  </entry>
  <entry>
    <fullUrl value="urn:uuid:a52efcb6-1f81-4333-a115-d45bd3183686"/>
    <resource>
      <Patient>
        <id value="a52efcb6-1f81-4333-a115-d45bd3183686"/>
        <meta>
          <profile value="https://www.ehealth.fgov.be/standards/fhir/core/StructureDefinition/be-patient"/>
        </meta>
        <identifier>
          <system value="https://www.ehealth.fgov.be/standards/fhir/core/NamingSystem/ssin"/>
          <value value="61032004773"/>
        </identifier>
        <name>
          <family value="Dupont"/>
          <given value="Jean"/>
        </name>
        <gender value="male"/>
      </Patient>
    </resource>
  </entry>
  <entry>
    <fullUrl value="urn:uuid:0a0d60df-0340-45a6-a493-a5d67f74d693"/>
    <resource>
      <ClaimResponse>
        <id value="0a0d60df-0340-45a6-a493-a5d67f74d693"/>
        <meta>
          <profile value="https://www.ehealth.fgov.be/standards/fhir/eattestation/StructureDefinition/be-eattestation-claimresponse"/>
        </meta>
        <identifier>
        <!-- attestationID cancelled-->
		  <system value="https://www.mycarenet.be/eattest"/>
		  <value value="300-1-170127-0000005-32"/>	
        </identifier>
        <status value="cancelled"/>
        <type>
          <coding>
            <system value="http://terminology.hl7.org/CodeSystem/claim-type"/>
            <code value="professional"/>
          </coding>
        </type>
        <subType>
        <!-- attestationType -->
          <coding>
            <system value="https://www.ehealth.fgov.be/standards/fhir/eattestation/CodeSystem/be-cs-eattestation-types"/>
            <code value="generalpractice"/>
          </coding>
        </subType>
        <use value="claim"/>
        <patient>
          <reference value="Patient/a52efcb6-1f81-4333-a115-d45bd3183686"/>
        </patient>
        <created value="2015-07-14T11:15:30+02:00"/>
        <insurer>
          <reference value="Organization/cfabb40d-a53f-4c56-bc19-725ea669b358"/>
        </insurer>
        <outcome value="complete"/>
      </ClaimResponse>
    </resource>
  </entry>
</Bundle>